Folder: Analysis-and-Plotting-of-DSC-TGA-and-DTA-of-Polyurethane-Foams/DSC Data Files

Note: README.md
### Analysis and Plotting of Differential Scanning Calorimetry (DSC), Thermogravimetric Analysis (TGA), and Differential Thermal Analysis (DTA) Plots of Commercial Polyurethane Foam

* * *
*Code written by Francis Sanguyo*

*Start Date: February 2, 2026*
*End Date: February 7, 2026*

*Description:*
This program plots and analyzes instrument data from Shimadzu DSC-60 Series and Shimadzu DTG-60A Series regarding the thermal properties of commercial polyurethane (PU) foam samples. These plots include DSC, TGA, and DTA, respectively. This program was written as part of a report for Experiment 3 of MATSE 121.02 LAB Polymeric Materials.

File: DSC_PU_Sample1.txt
Time(sec)	Temp(C)	DSC(mW)
0.000000	30.4567	-0.268830
3.900146	30.4029	-0.263432
7.800049	30.3661	-0.259713
11.7	30.5196	-0.288453
15.6001	30.9464	-0.395131
19.5	31.521	-0.516083
23.4001	32.1562	-0.594952
27.3	32.8128	-0.633846
31.2	33.4781	-0.649206
35.1001	34.1442	-0.652143
39	34.8119	-0.649746
42.9001	35.4789	-0.644760
46.8	36.1428	-0.638934
50.7	36.8107	-0.632664
54.6001	37.4789	-0.626672
58.5	38.1459	-0.619653
62.4001	38.8118	-0.612773
66.3	39.4788	-0.605935
70.2	40.1455	-0.599719
74.1001	40.8117	-0.592817
78	41.4783	-0.585643
81.9001	42.141	-0.579079
85.8	42.8072	-0.572033
89.7	43.4719	-0.565014
93.6001	44.1379	-0.558406
97.5	44.8025	-0.552003
101.4	45.4671	-0.546128
105.3	46.1291	-0.540136
109.2	46.7962	-0.534080
113.1	47.4619	-0.527468
117	48.1253	-0.520700
120.9	48.7898	-0.513387
124.8	49.4544	-0.506496
128.7	50.1195	-0.499145
132.6	50.7815	-0.492088
136.5	51.4464	-0.485711
140.4	52.1093	-0.478842
144.3	52.7751	-0.472154
148.2	53.4388	-0.464590
152.1	54.1029	-0.457399
156	54.7655	-0.450514
159.9	55.4311	-0.444046
163.8	56.0955	-0.435941
167.7	56.7581	-0.428328
171.6	57.4209	-0.421346
175.5	58.0832	-0.414857
179.4	58.7473	-0.408367
183.3	59.41	-0.402247
187.2	60.0706	-0.395607
191.1	60.7288	-0.389551
195	61.3883	-0.384025
198.9	62.0526	-0.379504
202.8	62.7117	-0.374716
206.7	63.3718	-0.369548
210.6	64.0343	-0.364481
214.5	64.6943	-0.359543
218.4	65.3567	-0.354188
222.3	66.0205	-0.349737
226.2	66.6808	-0.345243
230.1	67.3422	-0.340765
234	68.002	-0.336223
237.9	68.6627	-0.332269
241.8	69.3229	-0.328674
245.7	69.9853	-0.325903
249.6	70.6409	-0.322966
253.5	71.2989	-0.320537
257.4	71.9584	-0.318509
261.3	72.6178	-0.316845
265.2	73.2762	-0.315176
269.1	73.9357	-0.313759
273	74.5941	-0.312967
276.9	75.2515	-0.312549
280.8	75.9085	-0.311490
284.7	76.5693	-0.310848
288.6	77.2284	-0.311100
292.5	77.8848	-0.311019
296.4	78.5434	-0.311100
300.3	79.199	-0.311244
304.2	79.8589	-0.312560
308.1	80.5198	-0.313587
312	81.1782	-0.314839
315.9	81.8381	-0.315326
319.8	82.4951	-0.316894
323.7	83.1532	-0.318584
327.6	83.8129	-0.320606
331.5	84.467	-0.322645
335.4	85.1234	-0.324790
339.3	85.7775	-0.327128
343.2	86.4321	-0.330392
347.1	87.0899	-0.334340
351	87.7449	-0.337421
354.9	88.4032	-0.340321
358.8	89.0572	-0.343729
362.7	89.7145	-0.347581
366.6	90.3735	-0.350946
370.5	91.0331	-0.354103
374.4	91.689	-0.356713
378.3	92.3439	-0.359763
382.2	92.9994	-0.362550
386.1	93.653	-0.366365
390	94.3046	-0.370457
393.9	94.9617	-0.373951
397.8	95.6145	-0.377931
401.7	96.2662	-0.382013
405.6	96.9205	-0.385635
409.5	97.5764	-0.390546
413.4	98.2287	-0.394586
417.3	98.8822	-0.398197
421.2	99.5367	-0.402546
425.1	100.189	-0.406473
429	100.839	-0.410175
432.9	101.49	-0.414589
436.8	102.145	-0.419570
440.7	102.798	-0.424433
444.6	103.453	-0.428317
448.5	104.106	-0.432624
452.4	104.759	-0.436090
456.3	105.414	-0.439611
460.2	106.069	-0.443580
464.1	106.724	-0.446330
468	107.374	-0.448588
471.9	108.024	-0.452039
475.8	108.675	-0.456602
479.7	109.322	-0.460952
483.6	109.974	-0.464477
487.5	110.622	-0.468276
491.4	111.273	-0.471475
495.3	111.921	-0.475616
499.2	112.571	-0.480056
503.1	113.225	-0.484261
507	113.875	-0.487199
510.9	114.523	-0.490178
514.8	115.174	-0.492163
518.7	115.821	-0.501066
522.6	116.471	-0.508481
526.5	117.121	-0.489349
530.4	117.772	-0.481495
534.3	118.422	-0.479992
538.2	119.071	-0.480730
542.1	119.721	-0.482699
546	120.372	-0.483737
549.9	121.025	-0.485347
553.8	121.672	-0.486717
557.7	122.313	-0.488097
561.6	122.963	-0.490687
565.5	123.614	-0.492757
569.4	124.265	-0.494095
573.3	124.91	-0.495133
577.2	125.558	-0.496470
581.1	126.202	-0.498080
585	126.844	-0.498904
588.9	127.487	-0.500996
592.8	128.13	-0.501986
596.7	128.772	-0.501306
600.6	129.411	-0.502601
604.5	130.056	-0.504227
608.4	130.69	-0.506983
612.3	131.336	-0.510428
616.2	131.983	-0.514446
620.1	132.628	-0.516088
624	133.271	-0.516468
627.9	133.912	-0.516800
631.8	134.555	-0.518052
635.7	135.202	-0.519753
639.6	135.846	-0.520802
643.5	136.489	-0.520117
647.4	137.134	-0.520951
651.3	137.776	-0.521283
655.2	138.418	-0.521706
659.1	139.057	-0.521936
663	139.699	-0.522867
666.9	140.342	-0.523391
670.8	140.985	-0.523129
674.7	141.626	-0.522284
678.6	142.268	-0.522358
682.5	142.909	-0.522551
686.4	143.548	-0.522867
690.3	144.188	-0.524017
694.2	144.83	-0.524541
698.1	145.47	-0.524119
702	146.111	-0.523514
705.9	146.749	-0.522690
709.8	147.386	-0.521904
713.7	148.023	-0.521428
717.6	148.663	-0.521936
721.5	149.302	-0.522267
725.4	149.938	-0.522294
729.3	150.579	-0.521722
733.2	151.216	-0.521914
737.1	151.856	-0.521936
741	152.495	-0.522492
744.9	153.136	-0.522744
748.8	153.774	-0.522316
752.7	154.412	-0.522075
756.6	155.054	-0.521791
760.5	155.693	-0.521395
764.4	156.333	-0.521165
768.3	156.973	-0.521845
772.2	157.616	-0.521256
776.1	158.258	-0.520165
780	158.897	-0.520079
783.9	159.538	-0.520101
787.8	160.182	-0.520390
791.7	160.827	-0.520288
795.6	161.47	-0.519534
799.5	162.114	-0.520010
803.4	162.759	-0.520325
807.3	163.406	-0.520390
811.2	164.052	-0.520400
815.1	164.7	-0.520802
819	165.349	-0.520117
822.9	165.997	-0.518902
826.8	166.646	-0.516805
830.7	167.295	-0.516730
834.6	167.946	-0.516276
838.5	168.595	-0.515184
842.4	169.245	-0.514339
846.3	169.893	-0.513863
850.2	170.546	-0.512819
854.1	171.198	-0.511321
858	171.849	-0.510011
861.9	172.502	-0.508839
865.8	173.155	-0.507764
869.7	173.807	-0.507454
873.6	174.46	-0.506132
877.5	175.111	-0.504286
881.4	175.763	-0.504784
885.3	176.418	-0.505709
889.2	177.069	-0.505271
893.1	177.724	-0.504591
897	178.377	-0.503393
900.9	179.03	-0.502649
904.8	179.683	-0.502071
908.7	180.337	-0.500873
912.6	180.992	-0.500376
916.5	181.646	-0.499664
920.4	182.301	-0.498776
924.3	182.957	-0.497176
928.2	183.613	-0.495448
932.1	184.265	-0.495015
936	184.92	-0.495352
939.9	185.576	-0.494688
943.8	186.231	-0.493843
947.7	186.885	-0.491965
951.6	187.543	-0.491297
955.5	188.197	-0.489975
959.4	188.853	-0.489028
963.3	189.507	-0.488713
967.2	190.159	-0.487894
971.1	190.813	-0.487830
975	191.47	-0.488327
978.9	192.127	-0.488370
982.8	192.785	-0.488049
986.7	193.44	-0.486439
990.6	194.099	-0.483411
994.5	194.753	-0.480923
998.4	195.408	-0.479206
1002.3	196.069	-0.476285
1006.2	196.726	-0.474230
1010.1	197.382	-0.471379
1014	198.037	-0.468484
1017.9	198.693	-0.466644
1021.8	199.351	-0.464611
1025.7	200.007	-0.463284
1029.6	200.657	-0.461567
1033.5	201.316	-0.461075
1037.4	201.975	-0.460203
1041.3	202.629	-0.458796
1045.2	203.287	-0.457126
1049.1	203.939	-0.456083
1053	204.602	-0.453863
1056.9	205.259	-0.450589
1060.8	205.913	-0.449877
1064.7	206.566	-0.447390
1068.6	207.221	-0.445688
1072.5	207.879	-0.446432
1076.4	208.538	-0.445490
1080.3	209.196	-0.444212
1084.2	209.847	-0.442045
1088.1	210.514	-0.441831
1092	211.177	-0.439991
1095.9	211.835	-0.436561
1099.8	212.487	-0.433715
1103.7	213.148	-0.434202
1107.6	213.801	-0.432816
1111.5	214.455	-0.431816
1115.4	215.111	-0.431554
1119.3	215.767	-0.432517
1123.2	216.423	-0.433506
1127.1	217.086	-0.434432
1131	217.744	-0.433753
1134.9	218.398	-0.431366
1138.8	219.055	-0.429815
1142.7	219.706	-0.431677
1146.6	220.366	-0.433196
1150.5	221.031	-0.433335
1154.4	221.692	-0.432180
1156.2	221.993	-0.431506

File: DSC_PU_Sample2.txt
Time(sec)	Temp(C)	DSC(mW)
0.000000	30.3447	-0.137585
12	30.3941	-0.200249
24	32.1142	-0.397448
36	34.1605	-0.344061
48	36.2095	-0.309035
60	38.2646	-0.279797
72	40.3189	-0.252871
84	42.37	-0.226565
96	44.4179	-0.200061
108	46.4635	-0.178287
120	48.5085	-0.155710
132	50.55	-0.136895
144	52.5942	-0.122204
156	54.6355	-0.110188
168	56.6768	-0.100526
180	58.7137	-0.092763
192	60.7487	-0.083823
204	62.7851	-0.073535
216	64.8198	-0.072299
228	66.8545	-0.075450
240	68.8915	-0.082154
252	70.9166	-0.091003
264	72.9446	-0.104907
276	74.9692	-0.119266
288	76.9926	-0.136071
300	79.0158	-0.155207
312	81.0438	-0.176441
324	83.0686	-0.192678
336	85.0896	-0.212051
348	87.1017	-0.233311
360	89.1202	-0.252598
372	91.1399	-0.271114
384	93.1586	-0.288314
396	95.1736	-0.306237
408	97.1839	-0.322661
420	99.193	-0.338743
432	101.203	-0.353498
444	103.211	-0.367814
456	105.216	-0.381013
468	107.227	-0.393628
480	109.231	-0.405820
492	111.237	-0.419618
504	113.237	-0.434095
516	115.228	-0.464445
528	117.229	-0.493998
540	119.226	-0.465162
552	121.221	-0.459716
564	123.214	-0.463359
576	125.204	-0.468875
588	127.192	-0.473567
600	129.175	-0.477328
612	131.155	-0.482549
624	133.134	-0.485749
636	135.115	-0.488937
648	137.098	-0.491275
660	139.072	-0.494009
672	141.051	-0.497797
684	143.023	-0.498663
696	144.989	-0.501997
708	146.955	-0.503703
720	148.921	-0.506405
732	150.882	-0.509395
744	152.848	-0.512172
756	154.816	-0.515564
768	156.783	-0.519132
780	158.756	-0.522219
792	160.731	-0.524878
804	162.715	-0.529640
816	164.702	-0.532657
828	166.698	-0.536605
840	168.698	-0.540414
852	170.704	-0.545149
864	172.706	-0.548793
876	174.712	-0.553345
888	176.717	-0.568288
900	178.725	-0.676672
912	180.741	-0.689807
924	182.75	-0.695306
936	184.766	-0.700426
948	186.781	-0.703781
960	188.798	-0.710950
972	190.816	-0.715310
984	192.831	-0.720943
996	194.848	-0.725469
1008	196.87	-0.725566
1020	198.889	-0.728198
1032	200.906	-0.732761
1044	202.923	-0.734436
1056	204.943	-0.738978
1068	206.959	-0.742718
1080	208.979	-0.745591
1092	211.009	-0.747458
1104	213.03	-0.750084
1116	215.052	-0.754086
1128	217.068	-0.759848
1140	219.091	-0.766755
1152	220.335	-0.483908
1164	220.399	-0.301801
1176	220.402	-0.293493
1188	220.406	-0.292316
1200	220.408	-0.292760
1212	220.412	-0.292369
1224	220.42	-0.292535
1236	220.43	-0.292396
1248	220.433	-0.290352
1260	220.437	-0.290989
1272	220.441	-0.289502
1284	220.445	-0.290021
1296	220.447	-0.289860
1308	220.45	-0.289427
1320	220.453	-0.289684
1332	220.456	-0.288630
1344	220.461	-0.288453
1356	220.463	-0.287763
1368	220.47	-0.287742
1380	220.472	-0.285249
1392	220.476	-0.287480
1404	220.476	-0.285061
1416	220.481	-0.284960
1428	220.482	-0.285366
1440	220.485	-0.284665
1452	220.485	-0.284082
1464	220.487	-0.285329
1476	220.49	-0.284173
1488	220.49	-0.283007
1500	220.494	-0.283221
1512	220.495	-0.282472
1524	220.495	-0.281252
1536	220.499	-0.282130
1548	220.498	-0.282322
1560	220.502	-0.281916
1572	220.502	-0.280578
1584	220.508	-0.281316
1596	220.51	-0.279663
1608	220.513	-0.281231
1620	220.514	-0.279005
1632	220.513	-0.279182
1644	220.514	-0.279219
1656	220.518	-0.278850
1668	220.519	-0.278320
1680	220.522	-0.277823
1692	220.524	-0.278422
1704	220.527	-0.278117
1716	220.53	-0.277989
1728	220.531	-0.277887
1740	220.534	-0.276635
1752	219.893	-0.056415
1764	217.961	-0.091853
1776	215.958	-0.050696
1788	213.956	0.099284
1800	211.941	0.097048
1812	209.919	0.027386
1824	207.901	-0.024947
1836	205.883	-0.057485
1848	203.871	-0.076675
1860	201.859	-0.085492
1872	199.849	-0.089259
1884	197.837	-0.088547
1896	195.828	-0.085096
1908	193.818	-0.077178
1920	191.809	-0.071812
1932	189.801	-0.065211
1944	187.79	-0.059277
1956	185.785	-0.052178
1968	183.78	-0.042650
1980	181.777	-0.035962
1992	179.778	-0.030013
2004	177.775	-0.021710
2016	175.774	-0.017623
2028	173.774	-0.013305
2040	171.779	-0.009881
2052	169.784	-0.003322
2064	167.793	0.000851
2076	165.805	0.003986
2088	163.823	0.008581
2100	161.844	0.010523
2112	159.873	0.011609
2124	157.907	0.013589
2136	155.948	0.014397
2148	153.986	0.016628
2160	152.033	0.016874
2172	150.08	0.017205
2184	148.125	0.018206
2196	146.177	0.017773
2208	144.218	0.020052
2220	142.261	0.020185
2232	140.301	0.019731
2244	138.341	0.021394
2256	136.376	0.021501
2268	134.409	0.021892
2280	132.439	0.022266
2292	130.471	0.021229
2304	128.494	0.019763
2316	126.527	0.019185
2328	124.554	0.017633
2340	122.577	0.016467
2352	120.597	0.014129
2364	118.623	0.014948
2376	116.64	0.013097
2388	114.654	0.012754
2400	112.665	0.010946
2412	110.684	0.006078
2424	108.701	0.001573
2436	106.715	-0.002274
2448	104.73	-0.009352
2460	102.747	-0.015536
2472	100.763	-0.013888
2484	98.7839	-0.018061
2496	96.8116	-0.023320
2508	94.8432	-0.027542
2520	92.89	-0.032474
2532	90.9604	-0.038734
2544	89.0762	-0.048251
2556	87.2431	-0.058224
2568	85.466	-0.068560
2580	83.7348	-0.079468
2592	82.0535	-0.089767
2604	80.4223	-0.098760
2616	78.8471	-0.106726
2628	77.3224	-0.114457
2640	75.8455	-0.122953
2652	74.4109	-0.130667
2664	73.0207	-0.138393
2676	71.677	-0.144582
2688	70.3699	-0.151789
2700	69.1003	-0.158514
2712	67.8647	-0.165469
2724	66.6665	-0.171332
2736	65.5038	-0.177035
2748	64.3765	-0.183637
2760	63.2856	-0.188693
2772	62.2297	-0.194674
2784	61.2015	-0.199890
2796	60.2041	-0.204710
2808	59.2286	-0.209616
2820	58.279	-0.213672
2832	57.357	-0.218107
2844	56.4598	-0.221932
2856	55.586	-0.226356
2868	54.7428	-0.230674
2880	53.9239	-0.235644
2892	53.1286	-0.239881
2904	52.357	-0.244322
2916	51.6057	-0.248291
2928	50.8751	-0.252518
2940	50.1646	-0.256856
2952	49.4749	-0.260890
2964	48.8022	-0.265759
2976	48.1474	-0.268776
2988	47.5124	-0.273291
3000	46.8951	-0.276336
3012	46.2949	-0.279642
3024	45.7109	-0.283644
3036	45.1419	-0.286426
3048	44.5873	-0.289058
3060	44.0488	-0.291385
3072	43.5246	-0.292872
3084	43.0138	-0.295135
3096	42.5179	-0.297040
3108	42.0346	-0.298217
3120	41.5626	-0.299287
3132	41.1052	-0.300822
3144	40.6585	-0.302208
3156	40.224	-0.303219
3168	39.8009	-0.303818
3180	39.3886	-0.305418
3192	38.9866	-0.305712
3204	38.5949	-0.307253
3216	38.2162	-0.307606
3228	37.8397	-0.308580
3240	37.4776	-0.310147
3252	37.1243	-0.311683
3264	36.7785	-0.312672
3276	36.4431	-0.313272
3288	36.1179	-0.314272
3300	35.795	-0.314074
3312	35.4828	-0.315064
3324	35.1774	-0.316482
3336	34.8811	-0.317386
3348	34.5907	-0.318065
3360	34.307	-0.320205
3372	34.0295	-0.321286
3384	33.7577	-0.322923
3396	33.4932	-0.323897
3408	33.2358	-0.325149
3420	32.986	-0.325710
3432	32.7427	-0.325978
3444	32.5035	-0.326117
3456	32.2678	-0.326663
3468	32.0439	-0.326368
3480	31.8202	-0.326812
3492	31.6054	-0.327101
3504	31.3952	-0.327503
3516	31.1887	-0.327246
3528	30.9889	-0.327615
3540	30.7928	-0.328305
3552	30.6011	-0.329316
3564	30.4163	-0.330386
3576	30.2352	-0.331665
3588	30.0595	-0.333190
3592.1	30.0004	-0.333639

File: DSC_PU_Sample3.txt
Time(sec)	Temp(C)	DSC(mW)
0.000000	30.4492	-0.420260
12.1001	30.5196	-0.563831
24.2002	32.2891	-0.375791
36.2998	34.3587	-0.202094
48.3999	36.4309	-0.129576
60.5	38.5064	-0.090302
72.6001	40.5736	-0.065339
84.7002	42.6417	-0.047834
96.7998	44.7098	-0.033721
108.9	46.7728	-0.021887
121	48.833	-0.010379
133.1	50.893	-0.001830
145.2	52.9528	0.005222
157.3	55.0144	0.009122
169.4	57.0737	0.012824
181.5	59.1277	0.018035
193.6	61.1767	0.026461
205.7	63.2316	0.036583
217.8	65.2844	0.043361
229.9	67.3344	0.048128
242	69.3813	0.050225
254.1	71.4234	0.052339
266.2	73.4676	0.053928
278.3	75.5143	0.054297
290.4	77.5578	0.052927
302.5	79.5981	0.051606
314.6	81.6417	0.048973
326.7	83.6821	0.045373
338.8	85.719	0.040858
350.9	87.752	0.036957
363	89.784	0.032560
375.1	91.822	0.027959
387.2	93.8538	0.022673
399.3	95.8861	0.018350
411.4	97.9129	0.012915
423.5	99.9396	0.008212
435.6	101.969	0.003804
447.7	103.99	-0.000284
459.8	106.017	-0.003253
471.9	108.04	-0.005430
484	110.059	-0.008934
496.1	112.075	-0.012893
508.2	114.089	-0.019977
520.3	116.104	-0.032447
532.4	118.119	-0.032795
544.5	120.128	-0.020105
556.6	122.139	-0.019185
568.7	124.146	-0.020442
580.8	126.152	-0.020453
592.9	128.157	-0.019886
605	130.157	-0.019094
617.1	132.156	-0.017917
629.2	134.15	-0.017452
641.3	136.148	-0.015884
653.4	138.14	-0.014600
665.5	140.133	-0.013985
677.6	142.123	-0.011989
689.7	144.107	-0.010304
701.8	146.094	-0.008950
713.9	148.072	-0.007222
726	150.052	-0.005072
738.1	152.034	-0.002129
750.2	154.016	0.001450
762.3	156.002	0.004810
774.4	157.992	0.009769
786.5	159.987	0.015584
798.6	161.984	0.020849
810.7	163.989	0.027825
822.8	165.998	0.036032
834.9	168.013	0.042762
847	170.032	0.052884
859.1	172.056	0.061985
871.2	174.079	0.067602
883.3	176.102	0.072727
895.4	178.128	0.078757
907.5	180.154	0.083384
919.6	182.188	0.087841
931.7	184.213	0.092613
943.8	186.245	0.097364
955.9	188.279	0.099696
968	190.31	0.106822
980.1	192.346	0.108438
992.2	194.383	0.114885
1004.3	196.415	0.120160
1016.4	198.451	0.121931
1028.5	200.488	0.126093
1040.6	202.525	0.129806
1052.7	204.564	0.135033
1064.8	206.6	0.140458
1076.9	208.637	0.144336
1089	210.677	0.149355
1101.1	212.716	0.152142
1113.2	214.753	0.154068
1125.3	216.788	0.163008
1137.4	218.827	0.164088
1149.5	220.286	0.211596
1161.6	220.366	0.060385
1173.7	220.372	0.024150
1185.8	220.375	0.018372
1197.9	220.378	0.015435
1210	220.382	0.015745
1222.1	220.385	0.016644
1234.2	220.389	0.015247
1246.3	220.394	0.016034
1258.4	220.398	0.015563
1270.5	220.401	0.016949
1282.6	220.407	0.017906
1294.7	220.409	0.016456
1306.8	220.413	0.020790
1318.9	220.418	0.019543
1331	220.417	0.017858
1343.1	220.416	0.018083
1355.2	220.422	0.018976
1367.3	220.426	0.018821
1379.4	220.429	0.019725
1391.5	220.436	0.021304
1403.6	220.434	0.022395
1415.7	220.44	0.022700
1427.8	220.44	0.021528
1439.9	220.445	0.020207
1452	220.445	0.023096
1464.1	220.449	0.022208
1476.2	220.453	0.024214
1488.3	220.453	0.023251
1500.4	220.452	0.023679
1512.5	220.456	0.024524
1524.6	220.457	0.024722
1536.7	220.457	0.025145
1548.8	220.462	0.026151
1560.9	220.467	0.026172
1573	220.469	0.025466
1585.1	220.466	0.025867
1597.2	220.469	0.026327
1609.3	220.474	0.027584
1621.4	220.475	0.027611
1633.5	220.477	0.028756
1645.6	220.481	0.028007
1657.7	220.482	0.027552
1669.8	220.484	0.029468
1681.9	220.484	0.030425
1694	220.486	0.032233
1706.1	220.49	0.031618
1718.2	220.489	0.031249
1730.3	220.489	0.032485
1742.4	220.489	0.034801
1754.5	219.179	0.016954
1766.6	217.15	-0.118812
1778.7	215.126	-0.137852
1790.8	213.098	-0.147546
1802.9	211.07	-0.152340
1815	209.04	-0.155892
1827.1	207.013	-0.161563
1839.2	204.99	-0.165827
1851.3	202.961	-0.169363
1863.4	200.937	-0.172953
1875.5	198.917	-0.177164
1887.6	196.89	-0.179325
1899.7	194.87	-0.183691
1911.8	192.844	-0.189051
1923.9	190.821	-0.193032
1936	188.8	-0.196044
1948.1	186.782	-0.199430
1960.2	184.759	-0.202940
1972.3	182.744	-0.207214
1984.4	180.722	-0.210777
1996.5	178.705	-0.216068
2008.6	176.69	-0.219974
2020.7	174.674	-0.232108
2032.8	172.662	-0.230444
2044.9	170.65	-0.233397
2057	168.645	-0.237661
2069.1	166.639	-0.241935
2081.2	164.641	-0.245210
2093.3	162.647	-0.250394
2105.4	160.661	-0.254342
2117.5	158.675	-0.257472
2129.6	156.699	-0.260789
2141.7	154.721	-0.265352
2153.8	152.748	-0.268418
2165.9	150.777	-0.272398
2178	148.808	-0.282836
2190.1	146.841	-0.284007
2202.2	144.871	-0.286356
2214.3	142.897	-0.290331
2226.4	140.924	-0.294761
2238.5	138.949	-0.298254
2250.6	136.966	-0.302898
2262.7	134.983	-0.306253
2274.8	133.004	-0.310238
2286.9	131.018	-0.314513
2299	129.026	-0.318429
2311.1	127.044	-0.321168
2323.2	125.057	-0.325100
2335.3	123.074	-0.329033
2347.4	121.077	-0.332483
2359.5	119.083	-0.336721
2371.6	117.085	-0.340845
2383.7	115.088	-0.344457
2395.8	113.092	-0.348335
2407.9	111.093	-0.353712
2420	109.093	-0.359147
2432.1	107.096	-0.363850
2444.2	105.101	-0.367761
2456.3	103.101	-0.373084
2468.4	101.101	-0.376957
2480.5	99.1055	-0.380579
2492.6	97.1152	-0.384506
2504.7	95.1368	-0.386737
2516.8	93.1691	-0.389391
2528.9	91.223	-0.392050
2541	89.3189	-0.393007
2553.1	87.4693	-0.391135
2565.2	85.673	-0.389343
2577.3	83.9225	-0.387566
2589.4	82.2252	-0.385309
2601.5	80.5817	-0.382500
2613.6	78.9907	-0.381077
2625.7	77.4556	-0.379311
2637.8	75.9661	-0.377492
2649.9	74.5242	-0.375026
2662	73.1258	-0.373330
2674.1	71.7692	-0.371308
2686.2	70.4567	-0.369655
2698.3	69.1788	-0.368125
2710.4	67.9406	-0.366397
2722.5	66.7362	-0.364856
2734.6	65.572	-0.363042
2746.7	64.4419	-0.361731
2758.8	63.3523	-0.360651
2770.9	62.2917	-0.359511
2783	61.2611	-0.358163
2795.1	60.262	-0.356922
2807.2	59.288	-0.355954
2819.3	58.3372	-0.354119
2831.4	57.4157	-0.353279
2843.5	56.5208	-0.352262
2855.6	55.6522	-0.351363
2867.7	54.8079	-0.350427
2879.8	53.9928	-0.349357
2891.9	53.2012	-0.348325
2904	52.4297	-0.347249
2916.1	51.6819	-0.346586
2928.2	50.9567	-0.345853
2940.3	50.25	-0.344628
2952.4	49.5641	-0.343986
2964.5	48.8957	-0.342991
2976.6	48.2444	-0.342611
2988.7	47.6121	-0.341974
3000.8	46.9969	-0.341214
3012.9	46.3957	-0.340583
3025	45.8149	-0.339941
3037.1	45.2532	-0.339353
3049.2	44.7036	-0.338347
3061.3	44.167	-0.337748
3073.4	43.6449	-0.337416
3085.5	43.1399	-0.336865
3097.6	42.6455	-0.336180
3109.7	42.1656	-0.335923
3121.8	41.6954	-0.335565
3133.9	41.2429	-0.335083
3146	40.8011	-0.334511
3158.1	40.3707	-0.333778
3170.2	39.9524	-0.333371
3182.3	39.5465	-0.333029
3194.4	39.1479	-0.332585
3206.5	38.7624	-0.332136
3218.6	38.3838	-0.331697
3230.7	38.0176	-0.331611
3242.8	37.6606	-0.331419
3254.9	37.3151	-0.330841
3267	36.9772	-0.330381
3279.1	36.6466	-0.330557
3291.2	36.3245	-0.329846
3303.3	36.0133	-0.329546
3315.4	35.7063	-0.329461
3327.5	35.4122	-0.328984
3339.6	35.123	-0.328899
3351.7	34.8384	-0.328278
3363.8	34.5632	-0.327995
3375.9	34.2943	-0.328171
3388	34.0329	-0.328139
3400.1	33.7776	-0.327406
3412.2	33.5313	-0.327379
3424.3	33.2864	-0.326919
3436.4	33.051	-0.326561
3448.5	32.8203	-0.326582
3460.6	32.5966	-0.326037
3472.7	32.3794	-0.326507
3484.8	32.1657	-0.325871
3496.9	31.9581	-0.326293
3509	31.7558	-0.325651
3521.1	31.558	-0.325443
3533.2	31.3653	-0.325437
3545.3	31.1763	-0.325074
3557.4	30.9936	-0.325122
3569.5	30.8162	-0.324325
3581.6	30.6432	-0.324897
3593.7	30.4753	-0.324410
3605.8	30.3113	-0.324020
3617.9	30.1517	-0.324004
3629.6	30.0005	-0.324298